Folder: advanced_xafs/wf_data/pub_723/DS0747

Note: wf_data/pub_723/DS0747/ReadMeFile_PCCP_data_002_.txt
READ ME FILE For ‘The electronic structure, surface properties, and in situ N2O decomposition of mechanochemically synthesised LaMnO3'
Dataset DOI: https://doi.org/10.5258/SOTON/D1342  
ReadMe Author: Peter Wells, University of Southampton
This dataset supports the publication: The electronic structure, surface properties, and in situ N2O decomposition of mechanochemically synthesised LaMnO3 in Physical Chemistry Chemical Physics Journal (PCCP)
Rachel H. Blackmore, Maria Elena Rivas, George Tierney, Khaled M. H. Mohammed, Donato Decarolis, Shusaku Hayama, Federica Venturini, Georg Held, Rosa Arrigo, Monica Amboage, Pip Hellier, Evan Lynch, Mahrez Amri, Marianna Casavola, Tugce Eralp Erden, Paul Collier and Peter P. Wells
In this work, high energy resolution fluorescence detection (HERFD), X-ray absorption near edge structure (XANES), X-ray emission, and X-ray photoelectron spectroscopy (XPS) have been used to probe the electronic structural properties of the mechanochemically prepared LaMnO3. Moreover, in situ studies using near ambient pressure (NAP)-XPS, to follow performance of milled LaMnO3 during deN2O,  and high pressure energy dispersive EXAFS studies, to mimic the preparation conditions, have also been performed.
Physical Chemistry Chemical Physics Journal (PCCP)
DOI: 10.1039/d0cp00793e

This dataset contains: Data supporting figures in the main text and ESI.
The figures are as follows:

Figure 1: (A) HERFD Mn oxide reference materials (B) HERFD-XANES and standard XANES of time-slices during the mechanochemial synthesis if LaMnO3 compared to sol-gel synthesised LaMnO3
These files are in an .opju file format to be opened in origin software. 
Figure 2, S1 and S2:(A) Mn Kß XES mainlines for Mn reference oxides and sol-gel synthesised LaMnO3 with (B) ‘time-slices’ during the mechanochemical synthesis of LaMnO3 (C) presents the Kß1,3 max as a function of oxidation state, with a line of best fit calculated from the reference materials and used to calculate the oxidation state of the ball milled materials
These files are in seperate .dat file formats
Figure 3: In situ XRD patterns during mechanochemical syntheis with a PMMA, vibrational mill set-up at time 0 and time 19 h
These files are in an .opju file format to be opened in origin software. 
Figure 4:In situ high pressure EDE to mimic the pressures occuring during ball milling at pressures 0 GPa and 20 GPa
File is in a .prj to be opened in Athena software package
Figure 5: Powder XRD patterns for LaMnO3 synthesised in argon and air by milling, compared to sol-gel synthesised perovskite
Files are in .dat format to be opened in appropriate XRD software, such as DIFFRAC.SUITE TOPAS or EVA
Figure 6, 7A-B: XAS data for air and argon milled LaMnO3 compared to the sol-gel synthesised perovskite (EXAFS and XANES)
File is in a .prj to be opened in Athena and Artemis software package
Figure 7C-D: HERFD of air and argon milled LaMnO3 compared to the sol-gel synthesised perovskite and Mn2O3 precusor oxid

File: Figure_5_XRD_air_milled_LaMnO3.dat
SampleIdent ____ DataFileName ______
DiffrType ______   GeneratorVoltage __   TubeCurrent __
Anode __    Alpha1  1.54060    Alpha2  1.54439    Ratio  0.50000
MonochromatorUsed __   DivergenceSlit _      ReceivingSlit ___
  10.000   0.045 130.057    MeasureDateTime 08/11/2016   09:11
    1199    1215    1205    1190    1196    1114    1131    1079    1195    1161
    1019     957     958    1022     965     949     998    1000     926     921
     838     818     838     810     831     807     807     804     859     820
     721     723     724     750     716     759     701     711     684     678
     680     621     627     637     621     685     668     653     632     607
     579     558     560     546     521     550     532     542     549     562
     522     515     483     498     530     481     559     542     500     488
     457     464     441     461     452     469     443     443     456     439
     451     444     427     413     416     444     439     446     406     434
     461     509     519     486     549     548     559     584     646     617
     492     490     480     441     442     444     450     452     421     448
     420     425     431     414     399     391     394     422     407     404
     420     416     442     415     408     475     430     467     448     467
     500     462     495     464     491     508     487     504     508     514
     537     521     504     531     551     556     531     512     563     503
     593     559     586     560     616     570     572     568     599     577
     788     811     822     904     960     966     992    1054    1144    1202
    2127    1999    1884    1694    1555    1467    1321    1218    1147    1063
     325     312     295     316     321     314     297     307     279     284
     207     220     212     205     203     203     212     203     222     176
     197     182     194     181     184     165     194     175     203     175
     185     213     199     218     227     237     235     212     242     241
     347     349     403     430     416     494     492     493     489     488
     350     335     331     336     298     269     315     316     288     279
     244     217     206     224     212     222     222     200     221     195
     207     206     197     194     238     192     199     212     199     209
     259     206     260     232     223     249     250     263     254     303
     545     552     630     625     677     633     695     725     701     769
     364     382     380     323     307     319     313     290     283     233
     255     238     238     208     208     175     212     217     206     203
     209     205     186     194     181     207     224     188     171     185
     204     216     227     233     250     260     254     268     256     222
     262     250     283     266     247     270     242     226     227     247
     201     179     184     170     191     180     187     177     228     199
     215     233     222     228     193     204     216     197     239     212
     297     351     325     318     360     363     429     425     453     440
     644     678     592     587     594     518     547     540     490     447
     192     202     205     214     205     205     190     190     184     182
     136     151     123     131     151     141     127     141     157     140
     112     136     123     119     135     138     138     130     125     108
     118     101     122     118     122     107     114     112     126     134
     113     114     103     136     129     123     107     105     116     114
     132     141     128     133     134     143     176     176     160     152
     259     273     261     252     266     326     282     285     296     285
     220     191     180     184     186     182     190     176     157     178
     102     122     112     124     119     101     112     103     126     101
     146     119     134     115     116     116     128     134     114     126
     138     129     126     150     138     135     150     122     129     127
     113     115     121     112     133     109     112     116     120     102
     129     126     146     135     147     137     141     130     127     160
     209     185     213     254     226     276     251     255     257     223
     201     190     186     204     186     157     151     183     162     169
     127     105     130     108     116     131     126     122     120     108
     118     121     109     138     121     127     112     127     129     123
     129     135     155     132     121     114     144     142     122     116
     111     116     122      84     104     112     117      98     111     101
      98     101     118     118     120     107     124     114     101     109
     137     157     137     148     137     144     132     149     114     134
     119     117     121     102     120     113     114     120     103     102
      98      93     121     106      82     119     108     109     114     102
     110      89     119     108      96     107     127     120     112     135
      96     120     117     125     110     111     118      95     106      97
     111     117     106     111     126     120     123     124     134     127
     162     163     152     188     184     180     179     184     178     204
     209     224     217     207     210     205     213     196     179     213
     143     136     142     144     144     126     147     136     155     128
      99     121     106      99     101     103     103     103      96      93
      89      88     104      72      79      79      84      89      91      82
      75      65      92      82      78      85      83      86      88      79
      89      85      86      90      89      81     101      90      82      82
      87      87      90      97     103      99      94     105     104      96
     118     101     102      92     113     106      93     103      85      99
      98      90     121     102     107      88      94      91      93      96
      79      94      91     100     110      93     116      78      86      90
      94     120      91     119      99      95      92     106     104     111
      97     119     115      99     101      99     110     120     112      99
     138     118     122      94     131      99     134     134     109     136
     127     159     147     149     152     155     143     147     130     150
     157     162     162     163     158     174     154     170     180     172
     144     142     147     146     136     139     137     136     119     128
     134     134     131     127     127     111     128     113     113     108
      99      95     135     104     104     121     110     117     122      81
     116     104     108     124     118     110      92     117     122     127
     119     126      96     112     124     118     121     106     106      99
     118     119     134     121     127     138     134     117     135     113
     147     150     135     158     168     164     141     141     126     147
     155     120     157     131     165     146     125     128     159     130
     129     138     146     142     131     153     130     145     126     121
     129     131     107     140     120     135     138     116     112      95
     131     124     102     109     121     123     113     116     126     108
     134     103     110     106     118     117

File: Figure_5_XRD_Solgel_LaMnO3.dat
SampleIdent ____ DataFileName ______
DiffrType ______   GeneratorVoltage __   TubeCurrent __
Anode __    Alpha1  1.54060    Alpha2  1.54439    Ratio  0.50000
MonochromatorUsed __   DivergenceSlit _      ReceivingSlit ___
  10.000   0.023 130.007    MeasureDateTime 19/04/2017   09:11
     137     127     184     154     151     144     149     137     128     157
     148     149     121     148     147     133     155     119     129     149
     129     143     146     126     129     128     126     139     136     141
      95     142     144     131     122     129     118     112     128     116
     108     131     117      96     122     137     124     105     121     134
     106     112     104     135     113     105     127     127     122     115
     115     103     120     100     103     128      92     117     117      99
     117     100     105      79      97      99     103      88     118     126
     104     112      95     122      91      94     113     100     105      94
     112     116      99     120     109     117     129     119     109      96
     116     121     130     136     128     131     135     117     129     125
     197     200     208     193     243     265     251     304     298     317
     166     150     157     144     146     131     145     152     144     151
     145     121     123     122     123     138     132     126     127     126
     102     120      96     114     108     121     117     124     114     108
     127     123     112     103     118     118     103     130     122     112
     117     122     117     121     119     105     143      97     158     108
     124     121     157     140     126     138     118     138     164     123
     132     131     117     114     130     125     135     125     131     157
     258     232     247     248     273     271     284     285     307     311
    9783    9431    9426   10010   10651   11743   12100   12085   11207    9973
     197     192     159     178     189     159     181     177     167     187
     108     114     126     105     109      94     102      88      91     105
      77      82      78      89      57      81      87     105      76      78
      77      78      74      67      56      56      81      83      63      66
     133     118     138     139     151     185     215     231     227     217
     106     125     117     119      99     121     130     140     124     141
     893     942    1030    1049     970     932     875     795     677     578
     106      96      86      98      94      97      95     110     104      97
      83      97      78     108      92      91      96     114      80     108
     121     100      99     102     100      94      97      88     104     118
     113     110     112     129     126     121     107     120     144     132
     185     205     212     192     233     217     249     261     249     262
     314     283     258     247     236     209     234     193     189     170
     113     125     115     105     119     114      97     108     108     111
     100     102      89      91     116      89     110      92      91      93
      92      71      88     104      67      98      96      79     102      84
     107     123      96     104     105      99     102     106     119     115
     510     482     438     435     393     378     348     296     249     233
      76      77      73      91      73      84      83      69      75      79
      64      77      72      85      79      61      83      83      55      83
      89     100     103      85     111     103     108     104     111      88
     179     158     178     178     245     243     249     273     298     283
    1103    1168    1310    1370    1302    1254    1112    1097     995     957
      88      74     116      86      80      94      93      87      96     103
      70      71      73      78      77      81      65      86      83      71
      65      79      74      73      69      72      87      75      84      70
      59      63      57      49      57      54      65      64      65      84
      70      58      55      52      81      63      69      54      67      49
      71      60      58      61      64      69      76      58      53      66
      71      58      78      59      71      63      85      66      72      67
     114     130     120     146     140     185     167     218     202     229
     832     766     735     653     658     600     583     536     487     397
      70      57      72      69      68      81      51      77      53      68
      69      63      47      60      60      63      69      57      61      60
      62      66      65      68      72      85      63      62      87      75
     174     160     146     179     166     138     136     139     114     115
      60      67      62      66      48      36      66      50      65      49
      65      47      59      78      56      49      42      55      55      51
      72      72      72      61      75      56      58      79      70      65
     666     604     614     637     653     670     684     703     738     703
      81      54      67      69      62      54      63      59      75      53
      54      59      37      50      49      42      62      53      51      42
      49      72      59      60      51      60      48      48      54      55
     203     220     214     219     222     208     195     194     183     185
      70      75      68      66      77      58      76      54      68      60
      50      51      56      62      51      54      51      46      49      58
      52      55      43      44      43      37      55      57      64      51
     242     235     233     230     237     213     199     218     193     169
     119     107      91     112     105     108      85      95      90      87
      38      40      39      43      42      50      54      38      47      49
      53      48      48      48      54      44      52      53      55      53
      69      93      73      82      78      73      63      68      78      60
      62      38      41      56      44      52      50      53      39      47
      46      40      48      40      48      36      51      46      53      32
      64      75      65      73      66      59      79      77      65      84
     512     462     497     483     477     444     489     478     484     481
     217     206     194     172     183     188     189     207     174     177
      34      42      52      45      55      46      42      46      39      36
      46      44      56      40      50      40      42      44      42      38
      38      43      34      38      45      39      41      31      39      33
      44      38      39      36      36      40      36      41      48      39
      36      30      33      42      44      47      32      35      44      31
      35      32      41      30      39      33      32      44      40      37
      58      49      96      88      84      84     110     104      96     102
      50      46      52      43      37      40      41      41      40      44
      34      55      31      42      33      35      28      33      37      35
      33      34      36      29      36      38      32      36      44      28
      78      67      67      85      82      72      73      79      98      94
      48      63      45      42      57      35      57      48      51      41
      42      39      33      48      37      39      36      40      28      43
      38      47      40      41      34      34      37      52      34      42
     106      99     105     103     119     118     136     140     167     147
     172     146     170     171     169     159     156     166     165     160
      88      89      80      62      67      49      67      66      57      61
      43      43      34      35      31      36      29      30      30      39
      39      30      43      35      34      35      25      37      34      48
      55      60      49      33      45      56      50      54      35      45
      46      42      31      51      43      28      40      47      33      42
      55      52      30      37      30      22      24      39      28      45
      32      26      33      31      31      34      35      43      36      30
      55      61      53      61      64      61      60      68      74      78
      93      93      76      96      80      80      88      78      93      84
     106      95     109     128      89      95     107      79     103      86
      23      35      20      32      36      42      31      30      33      38
      28      28      21      25      22      22      23      26      18      33
      31      42      39      31      40      26      40      41      34      24
      41